
time,ax,ay,az,wx,wy,wz,Azimuth,Pitch,Roll,Gain,
0.0990,0.0000,0.0000,0.0000,0.0000,0.0000,0.0000,0.0000,0.0000,0.0000,-∞,
0.0990,0.0000,0.0000,0.0000,0.0000,0.0000,0.0000,0.0000,0.0000,0.0000,-∞,
0.1000,0.0000,0.0000,0.0000,0.0000,0.0000,0.0000,0.0000,0.0000,0.0000,-∞,
0.1000,0.0000,0.0000,0.0000,0.0000,0.0000,0.0000,0.0000,0.0000,0.0000,-∞,
0.1370,0.0000,0.0000,0.0000,0.0000,0.0000,0.0000,0.0000,0.0000,0.0000,-∞,
0.1370,0.0000,0.0000,0.0000,0.0000,0.0000,0.0000,0.0000,0.0000,0.0000,-∞,
0.1830,0.0000,0.0000,0.0000,0.0000,0.0000,0.0000,0.0000,0.0000,0.0000,-∞,
0.1830,0.0000,0.0000,0.0000,0.0147,-0.0122,-0.0402,0.0000,0.0000,0.0000,-∞,
0.1840,0.0000,0.0000,0.0000,0.0147,-0.0122,-0.0402,0.0000,0.0000,0.0000,-∞,
0.2030,0.0000,0.0000,0.0000,0.0147,-0.0122,-0.0402,0.0000,0.0000,0.0000,-∞,
0.2030,0.0000,0.0000,0.0000,0.0147,-0.0122,-0.0402,0.0000,0.0000,0.0000,-∞,
0.2040,0.0000,0.0000,0.0000,0.0147,-0.0122,-0.0402,0.0000,0.0000,0.0000,-∞,
0.2520,0.0000,0.0000,0.0000,0.0062,-0.0308,-0.0516,0.0000,0.0000,0.0000,-∞,
0.2530,0.0000,0.0000,0.0000,0.0062,-0.0308,-0.0516,0.0000,0.0000,0.0000,-∞,
0.2540,0.0000,0.0000,0.0000,0.0062,-0.0308,-0.0516,0.0000,0.0000,0.0000,-∞,
0.2700,0.0000,0.0000,0.0000,0.0062,-0.0308,-0.0516,0.0000,0.0000,0.0000,-∞,
0.2710,0.0000,0.0000,0.0000,0.0062,-0.0308,-0.0516,233.7806,-23.6998,-3.4493,-∞,
0.2720,-0.0331,-0.0022,0.0760,0.0062,-0.0308,-0.0516,233.7806,-23.6998,-3.4493,-∞,
0.2920,-0.0331,-0.0022,0.0760,0.0062,-0.0308,-0.0516,233.7806,-23.6998,-3.4493,-∞,
0.3190,-0.0331,-0.0022,0.0760,0.0062,-0.0308,-0.0516,233.7806,-23.6998,-3.4493,-∞,
0.3200,-0.0331,-0.0022,0.0760,-0.0301,-0.0086,-0.0384,233.7806,-23.6998,-3.4493,-∞,
0.3390,-0.0331,-0.0022,0.0760,-0.0301,-0.0086,-0.0384,233.3139,-23.4701,-3.6149,-∞,
0.3400,-0.0882,0.0460,-0.1106,-0.0301,-0.0086,-0.0384,233.3139,-23.4701,-3.6149,-∞,
0.3410,-0.0882,0.0460,-0.1106,-0.0301,-0.0086,-0.0384,233.3139,-23.4701,-3.6149,-∞,
0.3420,-0.0882,0.0460,-0.1106,-0.0301,-0.0086,-0.0384,233.3139,-23.4701,-3.6149,-∞,
0.3870,-0.0882,0.0460,-0.1106,-0.0301,-0.0086,-0.0384,233.3139,-23.4701,-3.6149,-∞,
0.3880,-0.0882,0.0460,-0.1106,-0.0301,-0.0086,-0.0384,233.3139,-23.4701,-3.6149,-∞,
0.3880,-0.0882,0.0460,-0.1106,0.0329,-0.0492,-0.0222,233.3139,-23.4701,-3.6149,-∞,
0.4040,-0.0882,0.0460,-0.1106,0.0329,-0.0492,-0.0222,233.3139,-23.4701,-3.6149,-∞,
0.4070,-0.0882,0.0460,-0.1106,0.0329,-0.0492,-0.0222,233.1424,-23.6045,-3.8859,-∞,
0.4080,-0.2059,-0.0487,0.1831,0.0329,-0.0492,-0.0222,233.1424,-23.6045,-3.8859,-∞,
0.4560,-0.2059,-0.0487,0.1831,0.0113,0.0170,-0.0132,233.1424,-23.6045,-3.8859,-∞,
0.4570,-0.2059,-0.0487,0.1831,0.0113,0.0170,-0.0132,233.1424,-23.6045,-3.8859,-∞,
0.4580,-0.2059,-0.0487,0.1831,0.0113,0.0170,-0.0132,233.1424,-23.6045,-3.8859,-∞,
0.4710,-0.2059,-0.0487,0.1831,0.0113,0.0170,-0.0132,233.1424,-23.6045,-3.8859,-∞,
0.4760,-0.2059,-0.0487,0.1831,0.0113,0.0170,-0.0132,233.1424,-23.6045,-3.8859,-∞,
0.4760,-0.0947,-0.0293,-0.1763,0.0113,0.0170,-0.0132,233.1424,-23.6045,-3.8859,-∞,
0.4770,-0.0947,-0.0293,-0.1763,0.0113,0.0170,-0.0132,233.0108,-23.5777,-4.1631,-∞,
0.5230,-0.0947,-0.0293,-0.1763,-0.1132,0.0360,0.0500,233.0108,-23.5777,-4.1631,-∞,
0.5250,-0.0947,-0.0293,-0.1763,-0.1132,0.0360,0.0500,233.0108,-23.5777,-4.1631,-∞,
0.5260,-0.0947,-0.0293,-0.1763,-0.1132,0.0360,0.0500,233.0108,-23.5777,-4.1631,-∞,
0.5370,-0.0947,-0.0293,-0.1763,-0.1132,0.0360,0.0500,233.0108,-23.5777,-4.1631,-∞,
0.5440,-0.0947,-0.0293,-0.1763,-0.1132,0.0360,0.0500,233.0884,-23.5137,-4.4509,-∞,
0.5460,-0.0611,0.1034,-0.5293,-0.1132,0.0360,0.0500,233.0884,-23.5137,-4.4509,-∞,
0.5890,-0.0611,0.1034,-0.5293,-0.1132,0.0360,0.0500,233.0884,-23.5137,-4.4509,85.2648,
0.5900,-0.0611,0.1034,-0.5293,-0.1132,0.0360,0.0500,233.0884,-23.5137,-4.4509,85.2648,
0.5910,-0.0611,0.1034,-0.5293,-0.1430,0.0211,0.0125,233.0884,-23.5137,-4.4509,85.2648,
0.6040,-0.0611,0.1034,-0.5293,-0.1430,0.0211,0.0125,233.0884,-23.5137,-4.4509,85.2648,
0.6110,-0.0611,0.1034,-0.5293,-0.1430,0.0211,0.0125,233.0884,-23.5137,-4.4509,85.2648,
0.6120,-0.0611,0.1034,-0.5293,-0.1430,0.0211,0.0125,232.7042,-23.3377,-4.5959,85.2648,
0.6140,0.0897,0.0437,-0.1123,-0.1430,0.0211,0.0125,232.7042,-23.3377,-4.5959,85.2648,
0.6600,0.0897,0.0437,-0.1123,-0.1430,0.0211,0.0125,232.7042,-23.3377,-4.5959,85.2648,
0.6630,0.0897,0.0437,-0.1123,-0.0510,0.0162,-0.0795,232.7042,-23.3377,-4.5959,85.2648,
0.6670,0.0897,0.0437,-0.1123,-0.0510,0.0162,-0.0795,232.7042,-23.3377,-4.5959,85.2648,
0.6740,0.0897,0.0437,-0.1123,-0.0510,0.0162,-0.0795,232.7042,-23.3377,-4.5959,85.2648,
0.6820,0.0897,0.0437,-0.1123,-0.0510,0.0162,-0.0795,232.7592,-23.0109,-4.5920,85.2648,
0.6860,0.2145,-0.0385,0.2915,-0.0510,0.0162,-0.0795,232.7592,-23.0109,-4.5920,85.2648,
0.7270,0.2145,-0.0385,0.2915,-0.0510,0.0162,-0.0795,232.7592,-23.0109,-4.5920,85.2648,
0.7290,0.2145,-0.0385,0.2915,-0.0510,0.0162,-0.0795,232.7592,-23.0109,-4.5920,85.2648,
0.7300,0.2145,-0.0385,0.2915,-0.1105,0.0123,-0.0878,232.7592,-23.0109,-4.5920,85.2648,
0.7390,0.2145,-0.0385,0.2915,-0.1105,0.0123,-0.0878,232.7592,-23.0109,-4.5920,85.2648,
0.7470,0.2145,-0.0385,0.2915,-0.1105,0.0123,-0.0878,233.0391,-22.5896,-4.5854,85.2648,
0.7490,0.0380,0.1614,-0.2890,-0.1105,0.0123,-0.0878,233.0391,-22.5896,-4.5854,85.2648,
0.7510,0.0380,0.1614,-0.2890,-0.1105,0.0123,-0.0878,233.0391,-22.5896,-4.5854,85.2648,
0.7960,0.0380,0.1614,-0.2890,-0.1105,0.0123,-0.0878,233.0391,-22.5896,-4.5854,85.2648,
0.7970,0.0380,0.1614,-0.2890,-0.1105,0.0123,-0.0878,233.0391,-22.5896,-4.5854,85.2648,
0.7980,0.0380,0.1614,-0.2890,-0.1220,-0.0144,-0.0698,233.0391,-22.5896,-4.5854,85.2648,
0.8160,0.0380,0.1614,-0.2890,-0.1220,-0.0144,-0.0698,233.2646,-22.3172,-4.7461,85.2648,
0.8180,0.0170,0.2853,-0.1739,-0.1220,-0.0144,-0.0698,233.2646,-22.3172,-4.7461,85.2648,
0.8190,0.0170,0.2853,-0.1739,-0.1220,-0.0144,-0.0698,233.2646,-22.3172,-4.7461,85.2648,
0.8640,0.0170,0.2853,-0.1739,-0.0745,-0.0747,-0.0804,233.2646,-22.3172,-4.7461,85.2648,
0.8660,0.0170,0.2853,-0.1739,-0.0745,-0.0747,-0.0804,233.2646,-22.3172,-4.7461,85.2648,
0.8670,0.0170,0.2853,-0.1739,-0.0745,-0.0747,-0.0804,233.2646,-22.3172,-4.7461,85.2648,
0.8720,0.0170,0.2853,-0.1739,-0.0745,-0.0747,-0.0804,233.2646,-22.3172,-4.7461,90.6492,
0.8850,0.0170,0.2853,-0.1739,-0.0745,-0.0747,-0.0804,233.4703,-22.0694,-4.7100,90.6492,
0.8870,0.1143,0.2579,0.0098,-0.0745,-0.0747,-0.0804,233.4703,-22.0694,-4.7100,90.6492,
0.8910,0.1143,0.2579,0.0098,-0.0745,-0.0747,-0.0804,233.4703,-22.0694,-4.7100,90.6492,
0.9310,0.1143,0.2579,0.0098,-0.0745,-0.0747,-0.0804,233.4703,-22.0694,-4.7100,90.6492,
0.9340,0.1143,0.2579,0.0098,-0.0998,-0.1234,-0.0747,233.4703,-22.0694,-4.7100,90.6492,
0.9370,0.1143,0.2579,0.0098,-0.0998,-0.1234,-0.0747,233.4703,-22.0694,-4.7100,90.6492,
0.9530,0.0331,0.2778,-0.1218,-0.0998,-0.1234,-0.0747,233.4703,-22.0694,-4.7100,90.6492,
0.9580,0.0331,0.2778,-0.1218,-0.0998,-0.1234,-0.0747,233.4703,-22.0694,-4.7100,90.6492,
0.9600,0.0331,0.2778,-0.1218,-0.0998,-0.1234,-0.0747,233.7952,-21.9375,-4.3827,90.6492,
0.9990,0.0331,0.2778,-0.1218,-0.0998,-0.1234,-0.0747,233.7952,-21.9375,-4.3827,90.6492,
1.0010,0.0331,0.2778,-0.1218,-0.0504,-0.1549,-0.1139,233.7952,-21.9375,-4.3827,90.6492,
1.0030,0.0331,0.2778,-0.1218,-0.0504,-0.1549,-0.1139,233.7952,-21.9375,-4.3827,90.6492,
1.0040,0.0331,0.2778,-0.1218,-0.0504,-0.1549,-0.1139,233.7952,-21.9375,-4.3827,90.6492,
1.0190,0.0331,0.2778,-0.1218,-0.0504,-0.1549,-0.1139,234.1196,-21.7336,-3.9332,90.6492,
1.0220,0.0333,0.2373,-0.0242,-0.0504,-0.1549,-0.1139,234.1196,-21.7336,-3.9332,90.6492,
1.0240,0.0333,0.2373,-0.0242,-0.0504,-0.1549,-0.1139,234.1196,-21.7336,-3.9332,90.6492,
1.0690,0.0333,0.2373,-0.0242,-0.0504,-0.1549,-0.1139,234.1196,-21.7336,-3.9332,90.6492,
1.0720,0.0333,0.2373,-0.0242,-0.0996,-0.0959,-0.1154,234.1196,-21.7336,-3.9332,90.6492,
1.0740,0.0333,0.2373,-0.0242,-0.0996,-0.0959,-0.1154,234.1196,-21.7336,-3.9332,90.6492,
1.0830,0.0333,0.2373,-0.0242,-0.0996,-0.0959,-0.1154,234.1196,-21.7336,-3.9332,90.6492,
1.0890,0.0333,0.2373,-0.0242,-0.0996,-0.0959,-0.1154,234.5945,-21.7335,-3.5649,90.6492,
1.0920,-0.1049,0.3533,-0.1130,-0.0996,-0.0959,-0.1154,234.5945,-21.7335,-3.5649,90.6492,
1.1340,-0.1049,0.3533,-0.1130,0.0007,-0.1122,-0.0968,234.5945,-21.7335,-3.5649,90.6492,
1.1360,-0.1049,0.3533,-0.1130,0.0007,-0.1122,-0.0968,234.5945,-21.7335,-3.5649,90.6492,
1.1380,-0.1049,0.3533,-0.1130,0.0007,-0.1122,-0.0968,234.5945,-21.7335,-3.5649,90.6492,
1.1390,-0.1049,0.3533,-0.1130,0.0007,-0.1122,-0.0968,234.5945,-21.7335,-3.5649,90.6492,
1.1550,-0.1049,0.3533,-0.1130,0.0007,-0.1122,-0.0968,235.1103,-21.5870,-3.3907,90.6492,
1.1580,-0.2783,0.3427,-0.0270,0.0007,-0.1122,-0.0968,235.1103,-21.5870,-3.3907,90.6492,
1.1610,-0.2783,0.3427,-0.0270,0.0007,-0.1122,-0.0968,235.1103,-21.5870,-3.3907,90.6492,
1.2080,-0.2783,0.3427,-0.0270,-0.0648,-0.0837,-0.0912,235.1103,-21.5870,-3.3907,90.7946,
1.2090,-0.2783,0.3427,-0.0270,-0.0648,-0.0837,-0.0912,235.1103,-21.5870,-3.3907,90.7946,
1.2100,-0.2783,0.3427,-0.0270,-0.0648,-0.0837,-0.0912,235.1103,-21.5870,-3.3907,90.7946,
1.2230,-0.2783,0.3427,-0.0270,-0.0648,-0.0837,-0.0912,235.3384,-21.7671,-3.3583,90.7946,
1.2280,-0.1951,0.4153,-0.3243,-0.0648,-0.0837,-0.0912,235.3384,-21.7671,-3.3583,90.7946,
1.2300,-0.1951,0.4153,-0.3243,-0.0648,-0.0837,-0.0912,235.3384,-21.7671,-3.3583,90.7946,
1.2720,-0.1951,0.4153,-0.3243,-0.0648,-0.0837,-0.0912,235.3384,-21.7671,-3.3583,90.7946,
1.2770,-0.1951,0.4153,-0.3243,0.1041,-0.1344,-0.0196,235.3384,-21.7671,-3.3583,90.7946,
1.2820,-0.1951,0.4153,-0.3243,0.1041,-0.1344,-0.0196,235.3384,-21.7671,-3.3583,90.7946,
1.2850,-0.1951,0.4153,-0.3243,0.1041,-0.1344,-0.0196,235.3384,-21.7671,-3.3583,90.7946,
1.2900,-0.1951,0.4153,-0.3243,0.1041,-0.1344,-0.0196,235.9465,-22.0363,-3.3013,90.7946,
1.2940,-0.3681,0.3851,0.0974,0.1041,-0.1344,-0.0196,235.9465,-22.0363,-3.3013,90.7946,
1.2960,-0.3681,0.3851,0.0974,0.1041,-0.1344,-0.0196,235.9465,-22.0363,-3.3013,90.7946,
1.3390,-0.3681,0.3851,0.0974,0.1041,-0.1344,-0.0196,235.9465,-22.0363,-3.3013,90.7946,
1.3410,-0.3681,0.3851,0.0974,0.1041,-0.1344,-0.0196,235.9465,-22.0363,-3.3013,90.7946,
1.3420,-0.3681,0.3851,0.0974,0.1333,-0.1411,0.0081,235.9465,-22.0363,-3.3013,90.7946,
1.3590,-0.3681,0.3851,0.0974,0.1333,-0.1411,0.0081,235.8940,-22.6630,-3.0151,90.7946,
1.3610,-0.3681,0.3851,0.0974,0.1333,-0.1411,0.0081,235.8940,-22.6630,-3.0151,90.7946,
1.3630,-0.1755,0.3968,-0.0378,0.1333,-0.1411,0.0081,235.8940,-22.6630,-3.0151,90.7946,
1.4040,-0.1755,0.3968,-0.0378,0.1333,-0.1411,0.0081,235.8940,-22.6630,-3.0151,90.7946,
1.4080,-0.1755,0.3968,-0.0378,0.1333,-0.1411,0.0081,235.8940,-22.6630,-3.0151,90.7946,
1.4110,-0.1755,0.3968,-0.0378,0.3090,-0.1478,0.0567,235.8940,-22.6630,-3.0151,90.7946,
1.4270,-0.1755,0.3968,-0.0378,0.3090,-0.1478,0.0567,236.0023,-23.6068,-2.6283,90.7946,
1.4320,-0.3057,0.1682,0.5629,0.3090,-0.1478,0.0567,236.0023,-23.6068,-2.6283,90.7946,
1.4350,-0.3057,0.1682,0.5629,0.3090,-0.1478,0.0567,236.0023,-23.6068,-2.6283,90.7946,
1.4370,-0.3057,0.1682,0.5629,0.3090,-0.1478,0.0567,236.0023,-23.6068,-2.6283,90.7946,
1.4700,-0.3057,0.1682,0.5629,0.3090,-0.1478,0.0567,236.0023,-23.6068,-2.6283,90.6492,
1.4720,-0.3057,0.1682,0.5629,0.3090,-0.1478,0.0567,236.0023,-23.6068,-2.6283,90.6492,
1.4740,-0.3057,0.1682,0.5629,0.1579,0.0136,0.1202,236.0023,-23.6068,-2.6283,90.6492,
1.4940,-0.1384,0.3160,0.3375,0.1579,0.0136,0.1202,236.0023,-23.6068,-2.6283,90.6492,
1.4980,-0.1384,0.3160,0.3375,0.1579,0.0136,0.1202,236.0023,-23.6068,-2.6283,90.6492,
1.5000,-0.1384,0.3160,0.3375,0.1579,0.0136,0.1202,235.7528,-24.9466,-2.0467,90.6492,
1.5380,-0.1384,0.3160,0.3375,0.1579,0.0136,0.1202,235.7528,-24.9466,-2.0467,90.6492,
1.5410,-0.1384,0.3160,0.3375,0.1579,0.0136,0.1202,235.7528,-24.9466,-2.0467,90.6492,
1.5430,-0.1384,0.3160,0.3375,0.0256,-0.2538,0.2054,235.7528,-24.9466,-2.0467,90.6492,
1.5630,-0.1384,0.3160,0.3375,0.0256,-0.2538,0.2054,235.5114,-24.9664,-2.3109,90.6492,
1.5670,-0.3989,-0.0338,0.7007,0.0256,-0.2538,0.2054,235.5114,-24.9664,-2.3109,90.6492,
1.5700,-0.3989,-0.0338,0.7007,0.0256,-0.2538,0.2054,235.5114,-24.9664,-2.3109,90.6492,
1.5720,-0.3989,-0.0338,0.7007,0.0256,-0.2538,0.2054,235.5114,-24.9664,-2.3109,90.6492,
1.6060,-0.3989,-0.0338,0.7007,0.0256,-0.2538,0.2054,235.5114,-24.9664,-2.3109,90.6492,
1.6090,-0.3989,-0.0338,0.7007,0.0256,-0.2538,0.2054,235.5114,-24.9664,-2.3109,90.6492,
1.6110,-0.3989,-0.0338,0.7007,0.4215,0.0230,-0.0591,235.5114,-24.9664,-2.3109,90.6492,
1.6300,-0.3989,-0.0338,0.7007,0.4215,0.0230,-0.0591,234.6922,-25.6692,-0.9273,90.6492,
1.6320,-0.0951,-1.3914,1.3929,0.4215,0.0230,-0.0591,234.6922,-25.6692,-0.9273,90.6492,
1.6330,-0.0951,-1.3914,1.3929,0.4215,0.0230,-0.0591,234.6922,-25.6692,-0.9273,90.6492,
1.6720,-0.0951,-1.3914,1.3929,0.4215,0.0230,-0.0591,234.6922,-25.6692,-0.9273,90.6492,
1.6760,-0.0951,-1.3914,1.3929,0.4215,0.0230,-0.0591,234.6922,-25.6692,-0.9273,90.6492,
1.6800,-0.0951,-1.3914,1.3929,0.1792,0.2451,-0.1109,234.6922,-25.6692,-0.9273,90.6492,
1.6840,-0.0951,-1.3914,1.3929,0.1792,0.2451,-0.1109,234.6922,-25.6692,-0.9273,90.6492,
1.6980,-0.0951,-1.3914,1.3929,0.1792,0.2451,-0.1109,234.9575,-26.4801,-1.8184,90.6492,
1.7020,0.7836,-1.0567,-1.0886,0.1792,0.2451,-0.1109,234.9575,-26.4801,-1.8184,90.6492,
1.7030,0.7836,-1.0567,-1.0886,0.1792,0.2451,-0.1109,234.9575,-26.4801,-1.8184,90.6492,
1.7380,0.7836,-1.0567,-1.0886,0.1792,0.2451,-0.1109,234.9575,-26.4801,-1.8184,90.6492,
1.7400,0.7836,-1.0567,-1.0886,0.1792,0.2451,-0.1109,234.9575,-26.4801,-1.8184,90.6492,
1.7460,0.7836,-1.0567,-1.0886,-0.1040,-0.0266,-0.0164,234.9575,-26.4801,-1.8184,90.6492,
1.7660,0.7836,-1.0567,-1.0886,-0.1040,-0.0266,-0.0164,235.4478,-26.8352,-2.6638,90.6492,
1.7680,0.3940,-1.1032,-0.1019,-0.1040,-0.0266,-0.0164,235.4478,-26.8352,-2.6638,90.6492,
1.7710,0.3940,-1.1032,-0.1019,-0.1040,-0.0266,-0.0164,235.4478,-26.8352,-2.6638,90.6492,
1.8050,0.3940,-1.1032,-0.1019,-0.1040,-0.0266,-0.0164,235.4478,-26.8352,-2.6638,91.8999,
1.8070,0.3940,-1.1032,-0.1019,-0.1040,-0.0266,-0.0164,235.4478,-26.8352,-2.6638,91.8999,
1.8140,0.3940,-1.1032,-0.1019,-0.0185,0.0795,-0.0710,235.4478,-26.8352,-2.6638,91.8999,
1.8340,0.3940,-1.1032,-0.1019,-0.0185,0.0795,-0.0710,235.3015,-26.1343,-2.0870,91.8999,
1.8370,0.3940,-1.1032,-0.1019,-0.0185,0.0795,-0.0710,235.3015,-26.1343,-2.0870,91.8999,
1.8390,0.3940,-1.1032,-0.1019,-0.0185,0.0795,-0.0710,235.3015,-26.1343,-2.0870,91.8999,
1.8410,0.9294,-1.5525,0.4978,-0.0185,0.0795,-0.0710,235.3015,-26.1343,-2.0870,91.8999,
1.8710,0.9294,-1.5525,0.4978,-0.0185,0.0795,-0.0710,235.3015,-26.1343,-2.0870,91.8999,
1.8820,0.9294,-1.5525,0.4978,-0.3168,0.2071,-0.0501,235.3015,-26.1343,-2.0870,91.8999,
1.8850,0.9294,-1.5525,0.4978,-0.3168,0.2071,-0.0501,235.3015,-26.1343,-2.0870,91.8999,
1.9030,0.9294,-1.5525,0.4978,-0.3168,0.2071,-0.0501,235.5721,-25.5194,-2.8319,91.8999,
1.9050,0.6908,-0.9542,-0.4713,-0.3168,0.2071,-0.0501,235.5721,-25.5194,-2.8319,91.8999,
1.9070,0.6908,-0.9542,-0.4713,-0.3168,0.2071,-0.0501,235.5721,-25.5194,-2.8319,91.8999,
1.9380,0.6908,-0.9542,-0.4713,-0.3168,0.2071,-0.0501,235.5721,-25.5194,-2.8319,91.8999,
1.9400,0.6908,-0.9542,-0.4713,-0.3168,0.2071,-0.0501,235.5721,-25.5194,-2.8319,91.8999,
1.9500,0.6908,-0.9542,-0.4713,-0.1920,0.1829,-0.1403,235.5721,-25.5194,-2.8319,91.8999,
1.9700,0.6908,-0.9542,-0.4713,-0.1920,0.1829,-0.1403,235.5732,-23.9967,-3.3675,91.8999,
1.9730,0.3762,-0.6313,-0.1902,-0.1920,0.1829,-0.1403,235.5732,-23.9967,-3.3675,91.8999,
1.9750,0.3762,-0.6313,-0.1902,-0.1920,0.1829,-0.1403,235.5732,-23.9967,-3.3675,91.8999,
1.9770,0.3762,-0.6313,-0.1902,-0.1920,0.1829,-0.1403,235.5732,-23.9967,-3.3675,91.8999,
2.0040,0.3762,-0.6313,-0.1902,-0.1920,0.1829,-0.1403,235.5732,-23.9967,-3.3675,91.8999,
2.0180,0.3762,-0.6313,-0.1902,-0.1617,-0.0086,-0.1255,235.5732,-23.9967,-3.3675,91.8999,
2.0210,0.3762,-0.6313,-0.1902,-0.1617,-0.0086,-0.1255,235.5732,-23.9967,-3.3675,91.8999,
2.0330,0.3762,-0.6313,-0.1902,-0.1617,-0.0086,-0.1255,235.5732,-23.9967,-3.3675,91.8999,
2.0390,0.3762,-0.6313,-0.1902,-0.1617,-0.0086,-0.1255,236.1588,-23.2787,-4.2848,91.8999,
2.0420,0.8496,-0.3833,-0.1033,-0.1617,-0.0086,-0.1255,236.1588,-23.2787,-4.2848,91.8999,
2.0710,0.8496,-0.3833,-0.1033,-0.1617,-0.0086,-0.1255,236.1588,-23.2787,-4.2848,89.7734,
2.0750,0.8496,-0.3833,-0.1033,-0.1617,-0.0086,-0.1255,236.1588,-23.2787,-4.2848,89.7734,
2.0850,0.8496,-0.3833,-0.1033,-0.1561,-0.2217,-0.0917,236.1588,-23.2787,-4.2848,89.7734,
2.1060,0.8496,-0.3833,-0.1033,-0.1561,-0.2217,-0.0917,236.1588,-23.2787,-4.2848,89.7734,
2.1090,0.8496,-0.3833,-0.1033,-0.1561,-0.2217,-0.0917,236.1588,-23.2787,-4.2848,89.7734,
2.1100,0.8496,-0.3833,-0.1033,-0.1561,-0.2217,-0.0917,236.5494,-22.5661,-3.7874,89.7734,
2.1130,0.3685,0.1024,0.0268,-0.1561,-0.2217,-0.0917,236.5494,-22.5661,-3.7874,89.7734,
2.1380,0.3685,0.1024,0.0268,-0.1561,-0.2217,-0.0917,236.5494,-22.5661,-3.7874,89.7734,
2.1550,0.3685,0.1024,0.0268,-0.1561,-0.2217,-0.0917,236.5494,-22.5661,-3.7874,89.7734,
2.1580,0.3685,0.1024,0.0268,-0.2224,-0.1280,-0.1602,236.5494,-22.5661,-3.7874,89.7734,
2.1740,0.8961,0.2404,-0.2651,-0.2224,-0.1280,-0.1602,236.5494,-22.5661,-3.7874,89.7734,
2.1790,0.8961,0.2404,-0.2651,-0.2224,-0.1280,-0.1602,236.5494,-22.5661,-3.7874,89.7734,
2.1810,0.8961,0.2404,-0.2651,-0.2224,-0.1280,-0.1602,237.0451,-21.8267,-2.9952,89.7734,
2.2040,0.8961,0.2404,-0.2651,-0.2224,-0.1280,-0.1602,237.0451,-21.8267,-2.9952,89.7734,
2.2060,0.8961,0.2404,-0.2651,-0.2224,-0.1280,-0.1602,237.0451,-21.8267,-2.9952,89.7734,
2.2230,0.8961,0.2404,-0.2651,-0.0751,-0.1218,-0.2367,237.0451,-21.8267,-2.9952,89.7734,
2.2420,0.8961,0.2404,-0.2651,-0.0751,-0.1218,-0.2367,237.7962,-21.1552,-2.6787,89.7734,
2.2450,0.8423,0.3199,-0.1356,-0.0751,-0.1218,-0.2367,237.7962,-21.1552,-2.6787,89.7734,
2.2470,0.8423,0.3199,-0.1356,-0.0751,-0.1218,-0.2367,237.7962,-21.1552,-2.6787,89.7734,
2.2490,0.8423,0.3199,-0.1356,-0.0751,-0.1218,-0.2367,237.7962,-21.1552,-2.6787,89.7734,
2.2710,0.8423,0.3199,-0.1356,-0.0751,-0.1218,-0.2367,237.7962,-21.1552,-2.6787,89.7734,
2.2820,0.8423,0.3199,-0.1356,-0.0751,-0.1218,-0.2367,237.7962,-21.1552,-2.6787,89.7734,
2.2890,0.8423,0.3199,-0.1356,-0.0985,-0.2462,-0.3210,237.7962,-21.1552,-2.6787,89.7734,
2.3100,0.8423,0.3199,-0.1356,-0.0985,-0.2462,-0.3210,238.8693,-20.9083,-2.2958,89.7734,
2.3140,0.7036,0.5886,-0.3728,-0.0985,-0.2462,-0.3210,238.8693,-20.9083,-2.2958,89.7734,
2.3170,0.7036,0.5886,-0.3728,-0.0985,-0.2462,-0.3210,238.8693,-20.9083,-2.2958,89.7734,
2.3400,0.7036,0.5886,-0.3728,-0.0985,-0.2462,-0.3210,238.8693,-20.9083,-2.2958,89.7734,
2.3430,0.7036,0.5886,-0.3728,-0.0985,-0.2462,-0.3210,238.8693,-20.9083,-2.2958,89.7734,
2.3580,0.7036,0.5886,-0.3728,-0.0046,-0.1929,-0.4552,238.8693,-20.9083,-2.2958,89.7734,
2.3790,0.7036,0.5886,-0.3728,-0.0046,-0.1929,-0.4552,240.5441,-20.6318,-1.7457,87.6276,
2.3830,0.8664,0.7730,-0.2236,-0.0046,-0.1929,-0.4552,240.5441,-20.6318,-1.7457,87.6276,
2.3850,0.8664,0.7730,-0.2236,-0.0046,-0.1929,-0.4552,240.5441,-20.6318,-1.7457,87.6276,
2.3860,0.8664,0.7730,-0.2236,-0.0046,-0.1929,-0.4552,240.5441,-20.6318,-1.7457,87.6276,
2.4040,0.8664,0.7730,-0.2236,-0.0046,-0.1929,-0.4552,240.5441,-20.6318,-1.7457,87.6276,
2.4260,0.8664,0.7730,-0.2236,-0.0046,-0.1929,-0.4552,240.5441,-20.6318,-1.7457,87.6276,
2.4280,0.8664,0.7730,-0.2236,-0.2316,-0.3823,-0.5237,240.5441,-20.6318,-1.7457,87.6276,
2.4460,0.8664,0.7730,-0.2236,-0.2316,-0.3823,-0.5237,242.6275,-20.6122,-1.3842,87.6276,
2.4500,0.6094,1.0557,-0.6013,-0.2316,-0.3823,-0.5237,242.6275,-20.6122,-1.3842,87.6276,
2.4520,0.6094,1.0557,-0.6013,-0.2316,-0.3823,-0.5237,242.6275,-20.6122,-1.3842,87.6276,
2.4710,0.6094,1.0557,-0.6013,-0.2316,-0.3823,-0.5237,242.6275,-20.6122,-1.3842,87.6276,
2.4830,0.6094,1.0557,-0.6013,-0.2316,-0.3823,-0.5237,242.6275,-20.6122,-1.3842,87.6276,
2.4940,0.6094,1.0557,-0.6013,0.0627,-0.1985,-0.3720,242.6275,-20.6122,-1.3842,87.6276,
2.5140,0.6094,1.0557,-0.6013,0.0627,-0.1985,-0.3720,245.1311,-19.9499,-0.5720,87.6276,
2.5180,0.1790,0.9450,0.0539,0.0627,-0.1985,-0.3720,245.1311,-19.9499,-0.5720,87.6276,
2.5200,0.1790,0.9450,0.0539,0.0627,-0.1985,-0.3720,245.1311,-19.9499,-0.5720,87.6276,
2.5210,0.1790,0.9450,0.0539,0.0627,-0.1985,-0.3720,245.1311,-19.9499,-0.5720,87.6276,
2.5380,0.1790,0.9450,0.0539,0.0627,-0.1985,-0.3720,245.1311,-19.9499,-0.5720,87.6276,
2.5620,0.1790,0.9450,0.0539,0.2162,-0.1903,-0.5011,245.1311,-19.9499,-0.5720,87.6276,
2.5640,0.1790,0.9450,0.0539,0.2162,-0.1903,-0.5011,245.1311,-19.9499,-0.5720,87.6276,
2.5820,0.1790,0.9450,0.0539,0.2162,-0.1903,-0.5011,246.8893,-20.5651,-0.4815,87.6276,
2.5850,0.1017,0.6708,-0.0417,0.2162,-0.1903,-0.5011,246.8893,-20.5651,-0.4815,87.6276,
2.5870,0.1017,0.6708,-0.0417,0.2162,-0.1903,-0.5011,246.8893,-20.5651,-0.4815,87.6276,
2.6060,0.1017,0.6708,-0.0417,0.2162,-0.1903,-0.5011,246.8893,-20.5651,-0.4815,87.6276,
2.6300,0.1017,0.6708,-0.0417,0.3087,-0.4703,-0.5850,246.8893,-20.5651,-0.4815,87.6276,
2.6320,0.1017,0.6708,-0.0417,0.3087,-0.4703,-0.5850,246.8893,-20.5651,-0.4815,87.6276,
2.6490,-0.0493,0.3823,0.6575,0.3087,-0.4703,-0.5850,246.8893,-20.5651,-0.4815,87.6276,
2.6530,-0.0493,0.3823,0.6575,0.3087,-0.4703,-0.5850,246.8893,-20.5651,-0.4815,87.6276,
2.6540,-0.0493,0.3823,0.6575,0.3087,-0.4703,-0.5850,246.8893,-20.5651,-0.4815,87.6276,
2.6560,-0.0493,0.3823,0.6575,0.3087,-0.4703,-0.5850,249.7397,-22.1043,-0.2558,87.6276,
2.6710,-0.0493,0.3823,0.6575,0.3087,-0.4703,-0.5850,249.7397,-22.1043,-0.2558,88.1477,
2.6990,-0.0493,0.3823,0.6575,0.3087,-0.4703,-0.5850,249.7397,-22.1043,-0.2558,88.1477,
2.7020,-0.0493,0.3823,0.6575,-0.5421,-0.4405,-0.1396,249.7397,-22.1043,-0.2558,88.1477,
2.7180,-1.5682,-0.0681,-0.0862,-0.5421,-0.4405,-0.1396,249.7397,-22.1043,-0.2558,88.1477,
2.7220,-1.5682,-0.0681,-0.0862,-0.5421,-0.4405,-0.1396,249.7397,-22.1043,-0.2558,88.1477,
2.7230,-1.5682,-0.0681,-0.0862,-0.5421,-0.4405,-0.1396,252.1927,-22.4515,1.1123,88.1477,
2.7430,-1.5682,-0.0681,-0.0862,-0.5421,-0.4405,-0.1396,252.1927,-22.4515,1.1123,88.1477,
2.7660,-1.5682,-0.0681,-0.0862,0.4753,-0.1005,-0.1386,252.1927,-22.4515,1.1123,88.1477,
2.7690,-1.5682,-0.0681,-0.0862,0.4753,-0.1005,-0.1386,252.1927,-22.4515,1.1123,88.1477,
2.7850,-1.5682,-0.0681,-0.0862,0.4753,-0.1005,-0.1386,253.1118,-21.0177,1.9882,88.1477,
2.7880,-0.5483,-2.1869,1.8005,0.4753,-0.1005,-0.1386,253.1118,-21.0177,1.9882,88.1477,
2.7900,-0.5483,-2.1869,1.8005,0.4753,-0.1005,-0.1386,253.1118,-21.0177,1.9882,88.1477,
2.7920,-0.5483,-2.1869,1.8005,0.4753,-0.1005,-0.1386,253.1118,-21.0177,1.9882,88.1477,
2.8070,-0.5483,-2.1869,1.8005,0.4753,-0.1005,-0.1386,253.1118,-21.0177,1.9882,88.1477,
2.8330,-0.5483,-2.1869,1.8005,0.4753,-0.1005,-0.1386,253.1118,-21.0177,1.9882,88.1477,
2.8360,-0.5483,-2.1869,1.8005,-0.3416,-0.0019,0.0827,253.1118,-21.0177,1.9882,88.1477,
2.8540,-0.5483,-2.1869,1.8005,-0.3416,-0.0019,0.0827,253.3379,-22.4330,1.7029,88.1477,
2.8560,-1.5803,-0.5964,-1.6136,-0.3416,-0.0019,0.0827,253.3379,-22.4330,1.7029,88.1477,
2.8580,-1.5803,-0.5964,-1.6136,-0.3416,-0.0019,0.0827,253.3379,-22.4330,1.7029,88.1477,
2.8790,-1.5803,-0.5964,-1.6136,-0.3416,-0.0019,0.0827,253.3379,-22.4330,1.7029,88.1477,
2.9020,-1.5803,-0.5964,-1.6136,-0.3416,-0.0019,0.0827,253.3379,-22.4330,1.7029,88.1477,
2.9040,-1.5803,-0.5964,-1.6136,-0.3193,-0.0797,0.3678,253.3379,-22.4330,1.7029,88.1477,
2.9220,-1.7030,-0.3351,-0.5714,-0.3193,-0.0797,0.3678,253.3379,-22.4330,1.7029,88.1477,
2.9240,-1.7030,-0.3351,-0.5714,-0.3193,-0.0797,0.3678,253.3379,-22.4330,1.7029,88.1477,
2.9260,-1.7030,-0.3351,-0.5714,-0.3193,-0.0797,0.3678,253.3379,-22.4330,1.7029,88.1477,
2.9270,-1.7030,-0.3351,-0.5714,-0.3193,-0.0797,0.3678,253.8221,-20.3600,2.0243,88.1477,
2.9680,-1.7030,-0.3351,-0.5714,-0.1667,-0.2487,0.4438,253.8221,-20.3600,2.0243,88.1477,
2.9720,-1.7030,-0.3351,-0.5714,-0.1667,-0.2487,0.4438,253.8221,-20.3600,2.0243,88.1477,
2.9750,-1.7030,-0.3351,-0.5714,-0.1667,-0.2487,0.4438,253.8221,-20.3600,2.0243,88.1477,
2.9890,-1.7030,-0.3351,-0.5714,-0.1667,-0.2487,0.4438,252.4079,-19.4303,2.6889,86.8857,
2.9910,-1.2342,-0.5450,-0.0235,-0.1667,-0.2487,0.4438,252.4079,-19.4303,2.6889,86.8857,
2.9930,-1.2342,-0.5450,-0.0235,-0.1667,-0.2487,0.4438,252.4079,-19.4303,2.6889,86.8857,
3.0050,-1.2342,-0.5450,-0.0235,-0.1667,-0.2487,0.4438,252.4079,-19.4303,2.6889,86.8857,
3.0330,-1.2342,-0.5450,-0.0235,-0.1667,-0.2487,0.4438,252.4079,-19.4303,2.6889,86.8857,
3.0380,-1.2342,-0.5450,-0.0235,-0.0439,-0.2052,0.3467,252.4079,-19.4303,2.6889,86.8857,
3.0580,-1.2342,-0.5450,-0.0235,-0.0439,-0.2052,0.3467,250.9290,-18.7636,4.1101,86.8857,
3.0620,-1.4202,0.1330,-0.6969,-0.0439,-0.2052,0.3467,250.9290,-18.7636,4.1101,86.8857,
3.0640,-1.4202,0.1330,-0.6969,-0.0439,-0.2052,0.3467,250.9290,-18.7636,4.1101,86.8857,
3.0660,-1.4202,0.1330,-0.6969,-0.0439,-0.2052,0.3467,250.9290,-18.7636,4.1101,86.8857,
3.0820,-1.4202,0.1330,-0.6969,-0.0439,-0.2052,0.3467,250.9290,-18.7636,4.1101,86.8857,
3.1050,-1.4202,0.1330,-0.6969,-0.0439,-0.2052,0.3467,250.9290,-18.7636,4.1101,86.8857,
3.1080,-1.4202,0.1330,-0.6969,0.0347,-0.1781,0.2140,250.9290,-18.7636,4.1101,86.8857,
3.1270,-1.4202,0.1330,-0.6969,0.0347,-0.1781,0.2140,250.9290,-18.7636,4.1101,86.8857,
3.1290,-1.0184,0.5623,-0.2880,0.0347,-0.1781,0.2140,250.9290,-18.7636,4.1101,86.8857,
3.1320,-1.0184,0.5623,-0.2880,0.0347,-0.1781,0.2140,249.7610,-18.3841,5.1423,86.8857,
3.1390,-1.0184,0.5623,-0.2880,0.0347,-0.1781,0.2140,249.7610,-18.3841,5.1423,86.8857,
3.1740,-1.0184,0.5623,-0.2880,0.0347,-0.1781,0.2140,249.7610,-18.3841,5.1423,86.8857,
3.1780,-1.0184,0.5623,-0.2880,0.3437,-0.0247,0.2120,249.7610,-18.3841,5.1423,86.8857,
3.1940,-1.0184,0.5623,-0.2880,0.3437,-0.0247,0.2120,249.2858,-19.2449,5.6622,86.8857,
3.1980,-0.9513,0.4156,0.8839,0.3437,-0.0247,0.2120,249.2858,-19.2449,5.6622,86.8857,
3.2020,-0.9513,0.4156,0.8839,0.3437,-0.0247,0.2120,249.2858,-19.2449,5.6622,86.8857,
3.2040,-0.9513,0.4156,0.8839,0.3437,-0.0247,0.2120,249.2858,-19.2449,5.6622,86.8857,
3.2410,-0.9513,0.4156,0.8839,0.3437,-0.0247,0.2120,249.2858,-19.2449,5.6622,86.8857,
3.2430,-0.9513,0.4156,0.8839,0.3437,-0.0247,0.2120,249.2858,-19.2449,5.6622,86.8857,
3.2450,-0.9513,0.4156,0.8839,0.0933,-0.2710,0.1514,249.2858,-19.2449,5.6622,86.8857,
3.2620,-0.9513,0.4156,0.8839,0.0933,-0.2710,0.1514,248.7270,-20.1482,6.3819,86.8857,
3.2650,-0.9023,0.7121,0.1616,0.0933,-0.2710,0.1514,248.7270,-20.1482,6.3819,86.8857,
3.2680,-0.9023,0.7121,0.1616,0.0933,-0.2710,0.1514,248.7270,-20.1482,6.3819,86.8857,
3.2740,-0.9023,0.7121,0.1616,0.0933,-0.2710,0.1514,248.7270,-20.1482,6.3819,86.8857,
3.3090,-0.9023,0.7121,0.1616,-0.1217,0.1255,0.0220,248.7270,-20.1482,6.3819,87.4508,
3.3130,-0.9023,0.7121,0.1616,-0.1217,0.1255,0.0220,248.7270,-20.1482,6.3819,87.4508,
3.3290,-0.9023,0.7121,0.1616,-0.1217,0.1255,0.0220,248.5804,-20.3210,6.8589,87.4508,
3.3320,0.8413,0.4569,2.8352,-0.1217,0.1255,0.0220,248.5804,-20.3210,6.8589,87.4508,
3.3340,0.8413,0.4569,2.8352,-0.1217,0.1255,0.0220,248.5804,-20.3210,6.8589,87.4508,
3.3360,0.8413,0.4569,2.8352,-0.1217,0.1255,0.0220,248.5804,-20.3210,6.8589,87.4508,
3.3780,0.8413,0.4569,2.8352,0.2964,-0.0684,-0.0409,248.5804,-20.3210,6.8589,87.4508,
3.3800,0.8413,0.4569,2.8352,0.2964,-0.0684,-0.0409,248.5804,-20.3210,6.8589,87.4508,
3.3810,0.8413,0.4569,2.8352,0.2964,-0.0684,-0.0409,248.5804,-20.3210,6.8589,87.4508,
3.3990,0.8413,0.4569,2.8352,0.2964,-0.0684,-0.0409,248.5804,-20.3210,6.8589,87.4508,
3.4010,0.6547,-1.4377,2.2138,0.2964,-0.0684,-0.0409,248.5804,-20.3210,6.8589,87.4508,
3.4020,0.6547,-1.4377,2.2138,0.2964,-0.0684,-0.0409,248.5956,-19.7709,6.6957,87.4508,
3.4440,0.6547,-1.4377,2.2138,0.1517,-0.1053,-0.1677,248.5956,-19.7709,6.6957,87.4508,
3.4480,0.6547,-1.4377,2.2138,0.1517,-0.1053,-0.1677,248.5956,-19.7709,6.6957,87.4508,
3.4490,0.6547,-1.4377,2.2138,0.1517,-0.1053,-0.1677,248.5956,-19.7709,6.6957,87.4508,
3.4650,0.6547,-1.4377,2.2138,0.1517,-0.1053,-0.1677,248.8386,-21.2738,7.0522,87.4508,
3.4670,0.9446,-1.1260,0.2628,0.1517,-0.1053,-0.1677,248.8386,-21.2738,7.0522,87.4508,
3.4680,0.9446,-1.1260,0.2628,0.1517,-0.1053,-0.1677,248.8386,-21.2738,7.0522,87.4508,
3.4690,0.9446,-1.1260,0.2628,0.1517,-0.1053,-0.1677,248.8386,-21.2738,7.0522,87.4508,
3.5130,0.9446,-1.1260,0.2628,0.1517,-0.1053,-0.1677,248.8386,-21.2738,7.0522,87.4508,
3.5170,0.9446,-1.1260,0.2628,0.1517,-0.1053,-0.1677,248.8386,-21.2738,7.0522,87.4508,
3.5190,0.9446,-1.1260,0.2628,-0.6093,-0.0145,-0.2907,248.8386,-21.2738,7.0522,87.4508,
3.5320,0.9446,-1.1260,0.2628,-0.6093,-0.0145,-0.2907,249.5202,-20.6986,7.2044,87.4508,
3.5360,1.6502,-0.0131,-1.7488,-0.6093,-0.0145,-0.2907,249.5202,-20.6986,7.2044,87.4508,
3.5380,1.6502,-0.0131,-1.7488,-0.6093,-0.0145,-0.2907,249.5202,-20.6986,7.2044,87.4508,
3.5810,1.6502,-0.0131,-1.7488,-0.6093,-0.0145,-0.2907,249.5202,-20.6986,7.2044,88.2830,
3.5850,1.6502,-0.0131,-1.7488,-0.3256,0.0600,-0.4981,249.5202,-20.6986,7.2044,88.2830,
3.5890,1.6502,-0.0131,-1.7488,-0.3256,0.0600,-0.4981,249.5202,-20.6986,7.2044,88.2830,
3.6010,1.6502,-0.0131,-1.7488,-0.3256,0.0600,-0.4981,251.5532,-18.8053,6.7564,88.2830,
3.6070,2.0663,-0.7445,-0.5174,-0.3256,0.0600,-0.4981,251.5532,-18.8053,6.7564,88.2830,
3.6100,2.0663,-0.7445,-0.5174,-0.3256,0.0600,-0.4981,251.5532,-18.8053,6.7564,88.2830,
3.6120,2.0663,-0.7445,-0.5174,-0.3256,0.0600,-0.4981,251.5532,-18.8053,6.7564,88.2830,
3.6500,2.0663,-0.7445,-0.5174,-0.4250,-0.2016,-0.3795,251.5532,-18.8053,6.7564,88.2830,
3.6570,2.0663,-0.7445,-0.5174,-0.4250,-0.2016,-0.3795,251.5532,-18.8053,6.7564,88.2830,
3.6600,2.0663,-0.7445,-0.5174,-0.4250,-0.2016,-0.3795,251.5532,-18.8053,6.7564,88.2830,
3.6690,2.0663,-0.7445,-0.5174,-0.4250,-0.2016,-0.3795,253.7317,-17.3430,6.3206,88.2830,
3.6720,0.3352,0.0191,-2.7195,-0.4250,-0.2016,-0.3795,253.7317,-17.3430,6.3206,88.2830,
3.6740,0.3352,0.0191,-2.7195,-0.4250,-0.2016,-0.3795,253.7317,-17.3430,6.3206,88.2830,
3.6830,0.3352,0.0191,-2.7195,-0.4250,-0.2016,-0.3795,253.7317,-17.3430,6.3206,88.2830,
3.7180,0.3352,0.0191,-2.7195,-0.0540,-0.2681,-0.2591,253.7317,-17.3430,6.3206,88.2830,
3.7210,0.3352,0.0191,-2.7195,-0.0540,-0.2681,-0.2591,253.7317,-17.3430,6.3206,88.2830,
3.7380,0.3352,0.0191,-2.7195,-0.0540,-0.2681,-0.2591,253.7317,-17.3430,6.3206,88.2830,
3.7390,-0.1889,0.4579,-0.8961,-0.0540,-0.2681,-0.2591,253.7317,-17.3430,6.3206,88.2830,
3.7410,-0.1889,0.4579,-0.8961,-0.0540,-0.2681,-0.2591,253.7317,-17.3430,6.3206,88.2830,
3.7420,-0.1889,0.4579,-0.8961,-0.0540,-0.2681,-0.2591,255.5024,-16.6958,6.7999,88.2830,
3.7850,-0.1889,0.4579,-0.8961,-0.0540,-0.2681,-0.2591,255.5024,-16.6958,6.7999,88.2830,
3.7870,-0.1889,0.4579,-0.8961,-0.1278,-0.2939,-0.1610,255.5024,-16.6958,6.7999,88.2830,
3.7870,-0.1889,0.4579,-0.8961,-0.1278,-0.2939,-0.1610,255.5024,-16.6958,6.7999,88.2830,
3.8040,-0.2766,0.9520,-1.3783,-0.1278,-0.2939,-0.1610,255.5024,-16.6958,6.7999,88.2830,
3.8050,-0.2766,0.9520,-1.3783,-0.1278,-0.2939,-0.1610,255.5024,-16.6958,6.7999,88.2830,
3.8060,-0.2766,0.9520,-1.3783,-0.1278,-0.2939,-0.1610,256.5634,-16.3313,7.8951,88.2830,
3.8530,-0.2766,0.9520,-1.3783,-0.3627,0.2582,-0.0426,256.5634,-16.3313,7.8951,88.2830,
3.8540,-0.2766,0.9520,-1.3783,-0.3627,0.2582,-0.0426,256.5634,-16.3313,7.8951,88.2830,
3.8550,-0.2766,0.9520,-1.3783,-0.3627,0.2582,-0.0426,256.5634,-16.3313,7.8951,88.2830,
3.8710,-0.2766,0.9520,-1.3783,-0.3627,0.2582,-0.0426,256.5634,-16.3313,7.8951,88.2830,
3.8720,-0.2766,0.9520,-1.3783,-0.3627,0.2582,-0.0426,258.1034,-16.2137,8.1573,88.2830,
3.8730,0.0338,0.9419,-0.0466,-0.3627,0.2582,-0.0426,258.1034,-16.2137,8.1573,88.2830,
3.8740,0.0338,0.9419,-0.0466,-0.3627,0.2582,-0.0426,258.1034,-16.2137,8.1573,88.2830,
3.9200,0.0338,0.9419,-0.0466,0.0274,0.1280,0.0862,258.1034,-16.2137,8.1573,88.0492,
3.9220,0.0338,0.9419,-0.0466,0.0274,0.1280,0.0862,258.1034,-16.2137,8.1573,88.0492,
3.9220,0.0338,0.9419,-0.0466,0.0274,0.1280,0.0862,258.1034,-16.2137,8.1573,88.0492,
3.9380,0.0338,0.9419,-0.0466,0.0274,0.1280,0.0862,258.1034,-16.2137,8.1573,88.0492,
3.9410,0.0338,0.9419,-0.0466,0.0274,0.1280,0.0862,258.7389,-14.9325,6.9827,88.0492,
3.9420,-0.0121,0.0918,1.1234,0.0274,0.1280,0.0862,258.7389,-14.9325,6.9827,88.0492,
3.9890,-0.0121,0.0918,1.1234,0.0274,0.1280,0.0862,258.7389,-14.9325,6.9827,88.0492,
3.9900,-0.0121,0.0918,1.1234,-0.1320,0.8037,0.2938,258.7389,-14.9325,6.9827,88.0492,
3.9910,-0.0121,0.0918,1.1234,-0.1320,0.8037,0.2938,258.7389,-14.9325,6.9827,88.0492,
4.0040,-0.0121,0.0918,1.1234,-0.1320,0.8037,0.2938,258.7389,-14.9325,6.9827,88.0492,
4.0080,-0.0121,0.0918,1.1234,-0.1320,0.8037,0.2938,258.7671,-14.7889,6.4854,88.0492,
4.0090,-1.1516,-0.0297,1.0817,-0.1320,0.8037,0.2938,258.7671,-14.7889,6.4854,88.0492,
4.0100,-1.1516,-0.0297,1.0817,-0.1320,0.8037,0.2938,258.7671,-14.7889,6.4854,88.0492,
4.0330,-1.1516,-0.0297,1.0817,-0.1320,0.8037,0.2938,258.7671,-14.7889,6.4854,88.0492,
4.0570,-1.1516,-0.0297,1.0817,-0.1320,0.8037,0.2938,258.7671,-14.7889,6.4854,88.0492,
4.0580,-1.1516,-0.0297,1.0817,0.4886,0.6923,0.3687,258.7671,-14.7889,6.4854,88.0492,
4.0710,-1.1516,-0.0297,1.0817,0.4886,0.6923,0.3687,258.7671,-14.7889,6.4854,88.0492,
4.0780,-1.1516,-0.0297,1.0817,0.4886,0.6923,0.3687,258.0305,-14.9256,2.9163,88.0492,
4.0790,0.1771,-3.3558,3.4232,0.4886,0.6923,0.3687,258.0305,-14.9256,2.9163,88.0492,
4.1240,0.1771,-3.3558,3.4232,0.4886,0.6923,0.3687,258.0305,-14.9256,2.9163,88.0492,
4.1250,0.1771,-3.3558,3.4232,-0.2685,0.5748,1.0127,258.0305,-14.9256,2.9163,88.0492,
4.1260,0.1771,-3.3558,3.4232,-0.2685,0.5748,1.0127,258.0305,-14.9256,2.9163,88.0492,
4.1370,0.1771,-3.3558,3.4232,-0.2685,0.5748,1.0127,258.0305,-14.9256,2.9163,88.0492,
4.1440,0.1771,-3.3558,3.4232,-0.2685,0.5748,1.0127,255.3170,-15.9043,1.3738,88.0492,
4.1450,-1.6875,-1.0966,-2.3590,-0.2685,0.5748,1.0127,255.3170,-15.9043,1.3738,88.0492,
4.1470,-1.6875,-1.0966,-2.3590,-0.2685,0.5748,1.0127,255.3170,-15.9043,1.3738,88.0492,
4.1940,-1.6875,-1.0966,-2.3590,-0.2685,0.5748,1.0127,255.3170,-15.9043,1.3738,89.7137,
4.1960,-1.6875,-1.0966,-2.3590,-0.2685,0.5748,1.0127,255.3170,-15.9043,1.3738,89.7137,
4.1970,-1.6875,-1.0966,-2.3590,-0.1896,0.7634,1.0430,255.3170,-15.9043,1.3738,89.7137,
4.2030,-1.6875,-1.0966,-2.3590,-0.1896,0.7634,1.0430,255.3170,-15.9043,1.3738,89.7137,
4.2110,-1.6875,-1.0966,-2.3590,-0.1896,0.7634,1.0430,250.8283,-14.2414,-0.1743,89.7137,
4.2120,0.2570,-1.0965,-0.1343,-0.1896,0.7634,1.0430,250.8283,-14.2414,-0.1743,89.7137,
4.2590,0.2570,-1.0965,-0.1343,-0.1896,0.7634,1.0430,250.8283,-14.2414,-0.1743,89.7137,
4.2610,0.2570,-1.0965,-0.1343,-0.1896,0.7634,1.0430,250.8283,-14.2414,-0.1743,89.7137,
4.2620,0.2570,-1.0965,-0.1343,0.3924,0.9815,0.7976,250.8283,-14.2414,-0.1743,89.7137,
4.2690,0.2570,-1.0965,-0.1343,0.3924,0.9815,0.7976,250.8283,-14.2414,-0.1743,89.7137,
4.2790,0.2570,-1.0965,-0.1343,0.3924,0.9815,0.7976,246.6496,-14.1442,-2.3647,89.7137,
4.2820,1.6831,-1.0898,-0.1565,0.3924,0.9815,0.7976,246.6496,-14.1442,-2.3647,89.7137,
4.2830,1.6831,-1.0898,-0.1565,0.3924,0.9815,0.7976,246.6496,-14.1442,-2.3647,89.7137,
4.3290,1.6831,-1.0898,-0.1565,0.3924,0.9815,0.7976,246.6496,-14.1442,-2.3647,89.7137,
4.3300,1.6831,-1.0898,-0.1565,0.3924,0.9815,0.7976,246.6496,-14.1442,-2.3647,89.7137,
4.3300,1.6831,-1.0898,-0.1565,0.6158,1.0978,0.5653,246.6496,-14.1442,-2.3647,89.7137,
4.3380,1.6831,-1.0898,-0.1565,0.6158,1.0978,0.5653,246.6496,-14.1442,-2.3647,89.7137,
4.3470,1.6831,-1.0898,-0.1565,0.6158,1.0978,0.5653,243.4720,-16.1767,-5.4221,89.7137,
4.3490,1.8016,-0.1123,-0.3469,0.6158,1.0978,0.5653,243.4720,-16.1767,-5.4221,89.7137,
4.3970,1.8016,-0.1123,-0.3469,0.6158,1.0978,0.5653,243.4720,-16.1767,-5.4221,89.7137,
4.3980,1.8016,-0.1123,-0.3469,0.6158,1.0978,0.5653,243.4720,-16.1767,-5.4221,89.7137,
4.3980,1.8016,-0.1123,-0.3469,0.8321,1.1047,0.1954,243.4720,-16.1767,-5.4221,89.7137,
4.4030,1.8016,-0.1123,-0.3469,0.8321,1.1047,0.1954,243.4720,-16.1767,-5.4221,89.7137,
4.4170,1.8016,-0.1123,-0.3469,0.8321,1.1047,0.1954,243.4720,-16.1767,-5.4221,89.7137,
4.4180,1.8016,-0.1123,-0.3469,0.8321,1.1047,0.1954,241.2326,-18.9581,-9.2687,89.7137,
4.4180,2.0517,0.4885,0.2396,0.8321,1.1047,0.1954,241.2326,-18.9581,-9.2687,89.7137,
4.4640,2.0517,0.4885,0.2396,0.8321,1.1047,0.1954,241.2326,-18.9581,-9.2687,95.0547,
4.4650,2.0517,0.4885,0.2396,0.8321,1.1047,0.1954,241.2326,-18.9581,-9.2687,95.0547,
4.4660,2.0517,0.4885,0.2396,0.7809,0.8108,-0.3142,241.2326,-18.9581,-9.2687,95.0547,
4.4850,1.8023,1.0868,1.0632,0.7809,0.8108,-0.3142,241.2326,-18.9581,-9.2687,95.0547,
4.4860,1.8023,1.0868,1.0632,0.7809,0.8108,-0.3142,241.2326,-18.9581,-9.2687,95.0547,
4.4870,1.8023,1.0868,1.0632,0.7809,0.8108,-0.3142,241.2062,-22.5056,-13.3119,95.0547,
4.5310,1.8023,1.0868,1.0632,0.7809,0.8108,-0.3142,241.2062,-22.5056,-13.3119,95.0547,
4.5320,1.8023,1.0868,1.0632,0.7809,0.8108,-0.3142,241.2062,-22.5056,-13.3119,95.0547,
4.5320,1.8023,1.0868,1.0632,0.3824,0.5324,-0.7864,241.2062,-22.5056,-13.3119,95.0547,
367.3700,1.8023,1.0868,1.0632,0.3824,0.5324,-0.7864,241.2062,-22.5056,-13.3119,-1003.2597,
367.3710,1.8023,1.0868,1.0632,0.3824,0.5324,-0.7864,241.2062,-22.5056,-13.3119,-1003.2597,
367.3720,1.8023,1.0868,1.0632,0.3824,0.5324,-0.7864,241.2062,-22.5056,-13.3119,-1003.2597,
367.3730,1.8023,1.0868,1.0632,0.3824,0.5324,-0.7864,241.2062,-22.5056,-13.3119,-1003.2597,
367.3830,1.8023,1.0868,1.0632,0.3824,0.5324,-0.7864,241.2062,-22.5056,-13.3119,-1003.2597,
367.4020,1.8023,1.0868,1.0632,0.3824,0.5324,-0.7864,241.2062,-22.5056,-13.3119,-1011.2185,
367.4040,1.8023,1.0868,1.0632,0.2080,-0.1904,-0.1422,241.2062,-22.5056,-13.3119,-1011.2185,
367.4670,1.8023,1.0868,1.0632,0.2080,-0.1904,-0.1422,241.2062,-22.5056,-13.3119,-1011.2185,
367.4680,1.8023,1.0868,1.0632,0.2080,-0.1904,-0.1422,241.2062,-22.5056,-13.3119,-1011.2185,
367.4680,1.8023,1.0868,1.0632,0.2080,-0.1904,-0.1422,241.2062,-22.5056,-13.3119,-1011.2185,
367.4690,1.8023,1.0868,1.0632,0.0770,-0.1468,-0.1072,241.2062,-22.5056,-13.3119,-1011.2185,
367.4690,1.8023,1.0868,1.0632,0.0770,-0.1468,-0.1072,241.2062,-22.5056,-13.3119,-1011.2185,
367.4690,0.0000,0.0000,0.0000,0.0770,-0.1468,-0.1072,241.2062,-22.5056,-13.3119,-1011.2185,
367.5350,0.0000,0.0000,0.0000,0.0770,-0.1468,-0.1072,241.2062,-22.5056,-13.3119,-1011.2185,
367.5360,0.0000,0.0000,0.0000,0.0770,-0.1468,-0.1072,241.2062,-22.5056,-13.3119,-1011.2185,
367.5360,0.0000,0.0000,0.0000,0.0770,-0.1468,-0.1072,241.2062,-22.5056,-13.3119,-1011.2185,
367.5370,0.0000,0.0000,0.0000,-0.0729,-0.0176,-0.0788,241.2062,-22.5056,-13.3119,-1011.2185,
367.5370,0.1269,0.0033,0.0241,-0.0729,-0.0176,-0.0788,241.2062,-22.5056,-13.3119,-1011.2185,
367.6000,0.1269,0.0033,0.0241,-0.0729,-0.0176,-0.0788,241.2062,-22.5056,-13.3119,-1019.1773,
367.6000,0.1269,0.0033,0.0241,-0.0729,-0.0176,-0.0788,241.2062,-22.5056,-13.3119,-1019.1773,
367.6010,0.1269,0.0033,0.0241,-0.0729,-0.0176,-0.0788,241.2062,-22.5056,-13.3119,-1019.1773,
367.6030,0.1269,0.0033,0.0241,-0.0729,-0.0176,-0.0788,200.2809,-24.3170,-2.5928,-1019.1773,
367.6040,0.1323,0.0746,0.2064,-0.0729,-0.0176,-0.0788,200.2809,-24.3170,-2.5928,-1019.1773,
367.6040,0.1323,0.0746,0.2064,-0.0150,-0.0430,-0.0768,200.2809,-24.3170,-2.5928,-1019.1773,
367.6040,0.1323,0.0746,0.2064,-0.0150,-0.0430,-0.0768,200.2809,-24.3170,-2.5928,-1019.1773,
367.6660,0.1323,0.0746,0.2064,-0.0150,-0.0430,-0.0768,200.2809,-24.3170,-2.5928,-1019.1773,
367.6670,0.1323,0.0746,0.2064,-0.0150,-0.0430,-0.0768,200.2809,-24.3170,-2.5928,-1019.1773,
367.6670,0.1323,0.0746,0.2064,-0.0150,-0.0430,-0.0768,200.2809,-24.3170,-2.5928,-1019.1773,
367.6700,0.1323,0.0746,0.2064,0.1061,0.1412,-0.1103,200.2809,-24.3170,-2.5928,-1019.1773,
367.6710,-0.0247,0.0993,0.1629,0.1061,0.1412,-0.1103,200.2809,-24.3170,-2.5928,-1019.1773,
367.6720,-0.0247,0.0993,0.1629,0.1061,0.1412,-0.1103,200.9970,-24.0103,-2.2345,-1019.1773,
367.6820,-0.0247,0.0993,0.1629,0.1061,0.1412,-0.1103,200.9970,-24.0103,-2.2345,-1019.1773,
367.7340,-0.0247,0.0993,0.1629,0.1061,0.1412,-0.1103,200.9970,-24.0103,-2.2345,-1019.1773,
367.7350,-0.0247,0.0993,0.1629,0.1061,0.1412,-0.1103,200.9970,-24.0103,-2.2345,-1019.1773,
367.7380,-0.0247,0.0993,0.1629,-0.0310,0.2694,-0.1044,200.9970,-24.0103,-2.2345,-1019.1773,
367.7390,-0.0247,0.0993,0.1629,-0.0310,0.2694,-0.1044,201.6159,-24.0481,-2.2831,-1019.1773,
367.7400,0.1000,0.0708,0.0503,-0.0310,0.2694,-0.1044,201.6159,-24.0481,-2.2831,-1019.1773,
367.7400,0.1000,0.0708,0.0503,-0.0310,0.2694,-0.1044,201.6159,-24.0481,-2.2831,-1019.1773,
367.7990,0.1000,0.0708,0.0503,-0.0310,0.2694,-0.1044,201.6159,-24.0481,-2.2831,-1019.1773,
367.8000,0.1000,0.0708,0.0503,-0.0310,0.2694,-0.1044,201.6159,-24.0481,-2.2831,-1019.1773,
367.8000,0.1000,0.0708,0.0503,-0.0310,0.2694,-0.1044,201.6159,-24.0481,-2.2831,-1019.1773,
367.8060,0.1000,0.0708,0.0503,-0.0286,0.3928,-0.0475,201.6159,-24.0481,-2.2831,-1019.1773,
367.8070,0.1000,0.0708,0.0503,-0.0286,0.3928,-0.0475,202.3055,-24.4602,-2.9431,-1019.1773,
367.8070,-0.0416,0.0929,-0.0877,-0.0286,0.3928,-0.0475,202.3055,-24.4602,-2.9431,-1019.1773,
367.8480,-0.0416,0.0929,-0.0877,-0.0286,0.3928,-0.0475,202.3055,-24.4602,-2.9431,-1019.1773,
367.8490,-0.0416,0.0929,-0.0877,-0.0286,0.3928,-0.0475,202.3055,-24.4602,-2.9431,-1019.1773,
367.8660,-0.0416,0.0929,-0.0877,-0.0286,0.3928,-0.0475,202.3055,-24.4602,-2.9431,-1019.1773,
367.8740,-0.0416,0.0929,-0.0877,-0.0563,-0.0416,-0.0762,202.3055,-24.4602,-2.9431,-1019.1773,
367.8750,-0.0416,0.0929,-0.0877,-0.0563,-0.0416,-0.0762,202.9307,-24.4483,-4.3776,-1019.1773,
367.8750,0.1312,0.0780,-0.0826,-0.0563,-0.0416,-0.0762,202.9307,-24.4483,-4.3776,-1019.1773,
367.8760,0.1312,0.0780,-0.0826,-0.0563,-0.0416,-0.0762,202.9307,-24.4483,-4.3776,-1019.1773,
367.9330,0.1312,0.0780,-0.0826,-0.0563,-0.0416,-0.0762,202.9307,-24.4483,-4.3776,-1027.1361,
367.9330,0.1312,0.0780,-0.0826,-0.0563,-0.0416,-0.0762,202.9307,-24.4483,-4.3776,-1027.1361,
367.9340,0.1312,0.0780,-0.0826,-0.0563,-0.0416,-0.0762,202.9307,-24.4483,-4.3776,-1027.1361,
367.9420,0.1312,0.0780,-0.0826,-0.0791,-0.5982,-0.2067,202.9307,-24.4483,-4.3776,-1027.1361,
367.9430,0.1312,0.0780,-0.0826,-0.0791,-0.5982,-0.2067,203.3105,-24.4156,-5.8323,-1027.1361,
367.9430,0.1912,-0.1263,-0.0010,-0.0791,-0.5982,-0.2067,203.3105,-24.4156,-5.8323,-1027.1361,
368.0000,0.1912,-0.1263,-0.0010,-0.0791,-0.5982,-0.2067,203.3105,-24.4156,-5.8323,-1027.1361,
368.0010,0.1912,-0.1263,-0.0010,-0.0791,-0.5982,-0.2067,203.3105,-24.4156,-5.8323,-1027.1361,
368.0010,0.1912,-0.1263,-0.0010,-0.0791,-0.5982,-0.2067,203.3105,-24.4156,-5.8323,-1027.1361,
368.0100,0.1912,-0.1263,-0.0010,-0.1801,-0.5294,-0.1211,203.3105,-24.4156,-5.8323,-1027.1361,
368.0110,0.1912,-0.1263,-0.0010,-0.1801,-0.5294,-0.1211,203.3105,-24.4156,-5.8323,-1027.1361,
368.0110,-0.2155,-0.1000,0.1636,-0.1801,-0.5294,-0.1211,203.3105,-24.4156,-5.8323,-1027.1361,
368.0120,-0.2155,-0.1000,0.1636,-0.1801,-0.5294,-0.1211,204.0148,-24.0211,-5.1424,-1027.1361,
368.0660,-0.2155,-0.1000,0.1636,-0.1801,-0.5294,-0.1211,204.0148,-24.0211,-5.1424,-1027.1361,
368.0670,-0.2155,-0.1000,0.1636,-0.1801,-0.5294,-0.1211,204.0148,-24.0211,-5.1424,-1027.1361,
368.0780,-0.2155,-0.1000,0.1636,-0.1801,-0.5294,-0.1211,204.0148,-24.0211,-5.1424,-1027.1361,
368.0790,-0.2155,-0.1000,0.1636,-0.1297,-0.4774,-0.0003,204.0148,-24.0211,-5.1424,-1027.1361,
368.0790,-0.2155,-0.1000,0.1636,-0.1297,-0.4774,-0.0003,204.8292,-23.5663,-3.2414,-1027.1361,
368.0800,-0.0341,0.1503,-0.5142,-0.1297,-0.4774,-0.0003,204.8292,-23.5663,-3.2414,-1027.1361,
368.1330,-0.0341,0.1503,-0.5142,-0.1297,-0.4774,-0.0003,204.8292,-23.5663,-3.2414,-1027.1361,
368.1340,-0.0341,0.1503,-0.5142,-0.1297,-0.4774,-0.0003,204.8292,-23.5663,-3.2414,-1027.1361,
368.1340,-0.0341,0.1503,-0.5142,-0.1297,-0.4774,-0.0003,204.8292,-23.5663,-3.2414,-1027.1361,
368.1460,-0.0341,0.1503,-0.5142,-0.0064,0.1064,0.0658,204.8292,-23.5663,-3.2414,-1027.1361,
368.1470,-0.0341,0.1503,-0.5142,-0.0064,0.1064,0.0658,205.4701,-23.0049,-1.4224,-1027.1361,
368.1470,-0.1827,-0.2199,0.3879,-0.0064,0.1064,0.0658,205.4701,-23.0049,-1.4224,-1027.1361,
368.1480,-0.1827,-0.2199,0.3879,-0.0064,0.1064,0.0658,205.4701,-23.0049,-1.4224,-1027.1361,
368.2000,-0.1827,-0.2199,0.3879,-0.0064,0.1064,0.0658,205.4701,-23.0049,-1.4224,-1035.0950,
368.2010,-0.1827,-0.2199,0.3879,-0.0064,0.1064,0.0658,205.4701,-23.0049,-1.4224,-1035.0950,
368.2140,-0.1827,-0.2199,0.3879,-0.0064,0.1064,0.0658,205.4701,-23.0049,-1.4224,-1035.0950,
368.2150,-0.1827,-0.2199,0.3879,0.0073,0.1739,0.1218,205.4701,-23.0049,-1.4224,-1035.0950,
368.2160,0.0971,-0.0474,0.1713,0.0073,0.1739,0.1218,205.4701,-23.0049,-1.4224,-1035.0950,
368.2170,0.0971,-0.0474,0.1713,0.0073,0.1739,0.1218,205.2472,-22.3645,0.0324,-1035.0950,
368.2660,0.0971,-0.0474,0.1713,0.0073,0.1739,0.1218,205.2472,-22.3645,0.0324,-1035.0950,
368.2670,0.0971,-0.0474,0.1713,0.0073,0.1739,0.1218,205.2472,-22.3645,0.0324,-1035.0950,
368.2670,0.0971,-0.0474,0.1713,0.0073,0.1739,0.1218,205.2472,-22.3645,0.0324,-1035.0950,
368.2820,0.0971,-0.0474,0.1713,0.0073,0.1739,0.1218,205.2472,-22.3645,0.0324,-1035.0950,
368.2830,0.0971,-0.0474,0.1713,0.1100,-0.1494,0.0886,205.2472,-22.3645,0.0324,-1035.0950,
368.2840,0.0971,-0.0474,0.1713,0.1100,-0.1494,0.0886,205.1083,-22.2852,-0.3927,-1035.0950,
368.2840,0.4181,0.0987,0.3909,0.1100,-0.1494,0.0886,205.1083,-22.2852,-0.3927,-1035.0950,
368.3130,0.4181,0.0987,0.3909,0.1100,-0.1494,0.0886,205.1083,-22.2852,-0.3927,-1035.0950,
368.3330,0.4181,0.0987,0.3909,0.1100,-0.1494,0.0886,205.1083,-22.2852,-0.3927,-1035.0950,
368.3500,0.4181,0.0987,0.3909,0.1100,-0.1494,0.0886,205.1083,-22.2852,-0.3927,-1035.0950,
368.3500,0.4181,0.0987,0.3909,0.2120,-0.0643,0.0930,205.1083,-22.2852,-0.3927,-1035.0950,
368.3510,-0.0941,0.1135,0.1512,0.2120,-0.0643,0.0930,205.1083,-22.2852,-0.3927,-1035.0950,
368.3520,-0.0941,0.1135,0.1512,0.2120,-0.0643,0.0930,204.7264,-22.3808,-0.4919,-1035.0950,
368.4000,-0.0941,0.1135,0.1512,0.2120,-0.0643,0.0930,204.7264,-22.3808,-0.4919,-1035.0950,
368.4000,-0.0941,0.1135,0.1512,0.2120,-0.0643,0.0930,204.7264,-22.3808,-0.4919,-1035.0950,
368.4010,-0.0941,0.1135,0.1512,0.2120,-0.0643,0.0930,204.7264,-22.3808,-0.4919,-1035.0950,
368.4180,-0.0941,0.1135,0.1512,0.1242,0.1841,0.2138,204.7264,-22.3808,-0.4919,-1035.0950,
368.4190,-0.0941,0.1135,0.1512,0.1242,0.1841,0.2138,204.3997,-22.8262,0.2537,-1035.0950,
368.4190,0.0124,-0.1120,0.3039,0.1242,0.1841,0.2138,204.3997,-22.8262,0.2537,-1035.0950,
368.4200,0.0124,-0.1120,0.3039,0.1242,0.1841,0.2138,204.3997,-22.8262,0.2537,-1035.0950,
